{
   "resourceType": "Bundle",
   "type": "message",
   "entry": [
       {
           "fullUrl": "http://example.com/fhir/MessageHeader/1",
           "resource": {
               "resourceType": "MessageHeader",
               "id": "1",
               "eventUri": "urn:ihe:iti:pmir:2019:patient-feed",
               "source": {
                   "endpoint": "http://example.com/patientSource"
               },
               "focus": [
                   {
                       "reference": "Patient/123"
                   }
               ],
               "destination": [
                   {
                       "endpoint": "http://example.com/patientEndpoint"
                   }
               ]
           }
       },
       {
           "fullUrl": "http://example.com/fhir/Patient/123",
           "resource": {
               "resourceType": "Patient",
               "id": "123",
               "contained": [
                   {
                       "resourceType": "Organization",
                       "id": "1",
                       "identifier": [
                           {
                               "system": "urn:oid:2.16.756.5.30.1.178.1.1",
                               "value": "Klinik H\u00f6heweg"
                           }
                       ],
                       "name": "Klinik H\u00f6heweg",
                       "contact": [
                           {
                               "name": {
                                   "family": "Test",
                                   "given": [
                                       "Hugo"
                                   ]
                               }
                           }
                       ]
                   }
               ],
               "identifier": [
                   {
                       "system": "urn:oid:2.16.756.5.30.1.178.1.1",
                       "value": "PATIENT12",
                       "assigner": {
                           "display": "Klinik H\u00f6heweg"
                       }
                   },
                   {
                       "system": "urn:oid:2.16.756.5.30.1.127.3.10.3",
                       "value": "DEMO12"
                   }
               ],
               "name": [
                   {
                       "family": "ALPHA",
                       "given": [
                           "ALAN"
                       ]
                   }
               ],
               "gender": "male",
               "birthDate": "1938-02-24",
               "address": [
                   {
                       "line": "1_PINETREE",
                       "city": "WEBSTER",
                       "state": "MD",
                       "postalCode": "63119"
                   }
               ],
               "managingOrganization": {
                   "reference": "#1"
               }
           },
           "request": {
               "method": "POST"
           }
       }
   ]
}